File: phy420/sheet2/Ex2-XPS-GaN.txt
-700,11425.5
-699.5,11170.5
-699,11638.7
-698.5,11534
-698,11524
-697.5,11551.5
-697,11296.9
-696.5,11412.7
-696,11682
-695.5,11833.4
-695,11521.9
-694.5,11677.9
-694,11599.7
-693.5,11481.2
-693,11475.9
-692.5,11946.7
-692,11776.7
-691.5,11670.1
-691,11739
-690.5,11638.7
-690,11819.7
-689.5,12026.9
-689,11968.3
-688.5,11745.4
-688,12288.2
-687.5,12255.2
-687,12339
-686.5,11956.6
-686,12484.2
-685.5,12418
-685,12419.7
-684.5,12370.3
-684,12514.6
-683.5,12333.3
-683,12183.8
-682.5,12511.2
-682,12267.3
-681.5,12573
-681,12342.1
-680.5,12200.6
-680,12003.7
-679.5,12034.4
-679,12050.6
-678.5,12463.4
-678,12050.6
-677.5,12181.7
-677,12514.2
-676.5,12376.3
-676,12282
-675.5,12088.3
-675,12077.8
-674.5,12392.5
-674,12487.6
-673.5,12291.4
-673,12529
-672.5,12216.5
-672,12237.3
-671.5,12582.9
-671,12505.1
-670.5,12612.5
-670,12642.4
-669.5,12750.1
-669,12294.3
-668.5,13101.2
-668,12493
-667.5,12877
-667,13084.5
-666.5,12613.4
-666,12946.6
-665.5,13289.6
-665,12973.8
-664.5,12824.4
-664,12497.4
-663.5,12886.6
-663,12810.4
-662.5,13006
-662,13030.5
-661.5,12849.7
-661,12641.7
-660.5,13140.6
-660,13234.9
-659.5,13434.2
-659,13885.7
-658.5,13394.9
-658,13243.6
-657.5,13393.8
-657,13153.5
-656.5,13224.2
-656,13306.3
-655.5,13701
-655,14065.5
-654.5,13706.7
-654,14161.9
-653.5,13710.2
-653,13957.9
-652.5,14076.7
-652,14012.5
-651.5,13940
-651,14028
-650.5,14230.8
-650,14083.4
-649.5,14578.7
-649,14255.6
-648.5,14397
-648,14520.8
-647.5,14662.2
-647,14279.4
-646.5,14601.7
-646,14373.2
-645.5,14246.4
-645,14427.3
-644.5,14579
-644,14853.2
-643.5,14404.6
-643,14711.3
-642.5,14439
-642,14782.2
-641.5,14559.7
-641,14302
-640.5,14861.4
-640,14669.1
-639.5,14977.7
-639,14822.6
-638.5,15249.9
-638,15576.7
-637.5,15775.2
-637,16228.7
-636.5,16000
-636,16072.8
-635.5,16063.2
-635,15968.2
-634.5,15738.2
-634,15290.3
-633.5,15734.8
-633,15172.3
-632.5,15038
-632,14341.5
-631.5,14426.2
-631,14640.6
-630.5,14543.3
-630,14724.7
-629.5,14136.6
-629,14267.1
-628.5,14236.4
-628,14279.6
-627.5,14056.7
-627,13788.3
-626.5,13521.1
-626,12860.5
-625.5,12284.1
-625,12419.4
-624.5,13064.5
-624,13760.3
-623.5,14150
-623,14902.2
-622.5,15560.8
-622,16617
-621.5,17711.6
-621,18920.7
-620.5,19295.7
-620,19477.5
-619.5,19178.5
-619,19338.7
-618.5,18843.1
-618,18346
-617.5,18207
-617,17877.2
-616.5,17566.1
-616,17885.3
-615.5,17589.2
-615,16784.9
-614.5,17403.3
-614,17000.5
-613.5,17006.2
-613,15818.6
-612.5,14934.1
-612,14188.8
-611.5,13156.6
-611,12270.8
-610.5,11646.8
-610,11513.7
-609.5,10818.8
-609,10969.6
-608.5,10799.8
-608,10934.9
-607.5,10732.4
-607,10532.4
-606.5,10365.3
-606,10610.3
-605.5,10223
-605,10632.7
-604.5,10880.1
-604,10694.5
-603.5,10636.5
-603,10979.7
-602.5,10581.9
-602,10628.1
-601.5,10779.3
-601,11025.3
-600.5,10713.4
-600,10783.7
-599.5,10720.6
-599,10916
-598.5,10859
-598,11031.3
-597.5,10631.1
-597,11132
-596.5,11003.9
-596,11005.6
-595.5,10759
-595,10875.2
-594.5,10599.7
-594,10828.1
-593.5,11017.7
-593,11016.7
-592.5,11103.3
-592,11032.9
-591.5,11158.1
-591,11295.1
-590.5,11104.2
-590,11123
-589.5,11055.9
-589,11124.4
-588.5,11171.3
-588,11354.5
-587.5,11684.1
-587,11389.3
-586.5,11768.3
-586,11448
-585.5,11661.6
-585,11481.3
-584.5,11619.7
-584,11680.2
-583.5,11901.6
-583,11689.7
-582.5,11652.4
-582,11328
-581.5,11557.5
-581,11995.6
-580.5,11486.8
-580,12187.8
-579.5,11933.2
-579,11842.3
-578.5,11963.8
-578,12021.8
-577.5,12095.7
-577,11664.1
-576.5,12178.4
-576,12267.8
-575.5,12119.3
-575,12099
-574.5,12314.2
-574,12537.2
-573.5,12286.8
-573,12243.2
-572.5,12180.4
-572,12464.6
-571.5,12150.3
-571,12293.6
-570.5,12155.7
-570,11244.9
-569.5,10902.9
-569,10813.2
-568.5,10716.3
-568,11213.5
-567.5,11636
-567,12028.2
-566.5,12609.2
-566,12442.9
-565.5,12498.8
-565,12749.8
-564.5,12911.2
-564,13251.2
-563.5,13174.9
-563,13130.2
-562.5,13108
-562,13341.5
-561.5,13427.1
-561,13777.2
-560.5,13718.1
-560,13755.6
-559.5,13624.5
-559,14008.3
-558.5,14329.7
-558,14578.9
-557.5,14882.2
-557,15258.7
-556.5,15280.2
-556,14768.6
-555.5,14437.7
-555,14360.1
-554.5,14245
-554,14828
-553.5,14815.8
-553,14827.1
-552.5,14892.4
-552,14978.8
-551.5,14882.6
-551,15003.4
-550.5,14947.7
-550,14704.3
-549.5,14727.9
-549,14548.2
-548.5,14794.3
-548,14563.5
-547.5,14407.4
-547,14056.1
-546.5,13809.7
-546,13787.5
-545.5,13393.7
-545,13485.1
-544.5,13343
-544,13716.5
-543.5,13338.1
-543,13326.3
-542.5,13130.6
-542,13284.7
-541.5,13337.3
-541,13121.6
-540.5,13209.3
-540,12934.3
-539.5,13099.1
-539,13342.7
-538.5,13309
-538,13558.6
-537.5,13964.3
-537,14099.1
-536.5,14013.7
-536,14463.1
-535.5,14929.2
-535,15242.5
-534.5,16749.6
-534,18583.7
-533.5,22739.5
-533,29132
-532.5,39313.4
-532,48975.5
-531.5,49908.7
-531,41378
-530.5,32240.2
-530,25252.4
-529.5,18877.9
-529,15558.7
-528.5,14064.1
-528,13728.9
-527.5,13366.8
-527,13289.3
-526.5,12611.1
-526,12738.2
-525.5,12871.1
-525,12753
-524.5,12784
-524,12780.3
-523.5,12997.1
-523,13017.8
-522.5,12702.1
-522,12760.4
-521.5,13094.7
-521,12813.2
-520.5,13379.4
-520,13693.9
-519.5,13901.2
-519,13828.1
-518.5,13923.7
-518,13687.4
-517.5,13873.3
-517,13315.6
-516.5,12941.2
-516,13020.4
-515.5,13471.5
-515,13198.7
-514.5,13014.5
-514,13279
-513.5,13531
-513,13547
-512.5,13799.5
-512,13939.2
-511.5,14179.7
-511,14313
-510.5,14319.2
-510,14238.7
-509.5,13862.7
-509,14180.5
-508.5,13778.1
-508,14018.3
-507.5,13751.1
-507,13899.8
-506.5,13750.3
-506,14152.3
-505.5,13665
-505,13843
-504.5,13834
-504,14065
-503.5,13914.1
-503,14112.3
-502.5,14127.1
-502,13958.7
-501.5,14196
-501,13522.5
-500.5,13947.4
-500,14109.7
-499.5,13844.5
-499,14078.6
-498.5,14091.1
-498,14517.3
-497.5,14087.3
-497,14208.1
-496.5,14344.2
-496,14561.8
-495.5,14298.3
-495,14395.7
-494.5,15023.5
-494,15538.8
-493.5,15746
-493,16141.5
-492.5,15931.2
-492,16526.3
-491.5,17367
-491,17740
-490.5,17995.2
-490,18729.2
-489.5,18824
-489,18949.3
-488.5,18878.3
-488,18222.9
-487.5,17730.8
-487,17386.4
-486.5,16373
-486,15773.1
-485.5,15736
-485,15293.7
-484.5,14995.8
-484,15453.1
-483.5,15255.1
-483,14925.8
-482.5,14809
-482,14420.6
-481.5,14597.5
-481,14451.2
-480.5,14184.2
-480,13860.1
-479.5,14041.3
-479,13884.2
-478.5,14220.3
-478,14057.2
-477.5,13929.6
-477,14318.1
-476.5,13734.3
-476,13821.5
-475.5,13800.3
-475,13940
-474.5,13829.3
-474,13842.5
-473.5,14378.6
-473,14400.3
-472.5,14264.9
-472,14225.2
-471.5,14544.2
-471,14639.6
-470.5,14261.5
-470,14194.4
-469.5,14512.9
-469,14286.5
-468.5,14747.5
-468,14772.2
-467.5,14280
-467,14763.1
-466.5,15037.1
-466,14670.4
-465.5,14822.7
-465,14959.3
-464.5,14658.2
-464,14645.1
-463.5,14788.3
-463,15033.4
-462.5,15079.3
-462,15206.3
-461.5,15435.2
-461,14890.8
-460.5,15226.4
-460,15040
-459.5,15648.1
-459,15696.6
-458.5,15524.2
-458,15218.3
-457.5,15411
-457,15587.2
-456.5,15142.4
-456,15652.4
-455.5,15716.8
-455,15730.8
-454.5,15845.3
-454,15996
-453.5,16214.9
-453,16082.7
-452.5,16468.6
-452,16622.6
-451.5,16728.6
-451,16011.3
-450.5,16125.9
-450,16637.1
-449.5,16840.5
-449,16787.9
-448.5,16411.4
-448,16786.4
-447.5,16625.8
-447,16898.6
-446.5,16982.7
-446,17171.1
-445.5,17315.4
-445,16643.5
-444.5,17051.4
-444,17404.9
-443.5,17165.6
-443,17376.9
-442.5,17002.6
-442,17146.4
-441.5,17512
-441,17529.5
-440.5,17318.6
-440,17329.2
-439.5,17500.9
-439,17514.4
-438.5,17645.3
-438,17191.2
-437.5,17624.3
-437,17768.8
-436.5,18108.6
-436,18052.6
-435.5,18154.4
-435,18330.2
-434.5,18112.4
-434,18200
-433.5,18437
-433,18122.7
-432.5,18096.3
-432,18162.6
-431.5,18213.7
-431,18213.6
-430.5,18927.4
-430,19117.8
-429.5,18757.6
-429,19102
-428.5,18974
-428,18721.4
-427.5,18882.6
-427,18944.4
-426.5,19088.5
-426,19243.6
-425.5,19431.4
-425,19851.5
-424.5,20072.4
-424,19960.8
-423.5,20063.4
-423,20610.2
-422.5,20116
-422,20139.7
-421.5,20823.7
-421,20829.2
-420.5,20762
-420,20643.3
-419.5,21790.3
-419,22875.1
-418.5,24057
-418,24123.6
-417.5,24132.2
-417,24694.5
-416.5,23767.7
-416,23363
-415.5,22489
-415,21894
-414.5,21182.3
-414,20656.4
-413.5,19809.1
-413,19171.6
-412.5,18976.7
-412,18119.9
-411.5,16930.1
-411,16426.3
-410.5,15492.1
-410,15570.3
-409.5,15986.2
-409,15480.7
-408.5,15335.2
-408,14678.1
-407.5,14487.6
-407,13733.1
-406.5,13910.9
-406,13605.2
-405.5,13422.1
-405,13046.1
-404.5,12537.8
-404,12467.5
-403.5,12186.5
-403,11721.6
-402.5,11622.7
-402,11905.7
-401.5,12322.1
-401,12923.2
-400.5,14466.9
-400,16918.2
-399.5,23246.9
-399,41348.8
-398.5,91729.3
-398,170522
-397.5,180962
-397,87668.6
-396.5,34689.1
-396,21386.1
-395.5,16779.1
-395,14227.8
-394.5,12484.8
-394,11480.9
-393.5,10668.9
-393,10032.1
-392.5,10104.7
-392,9917.16
-391.5,9851.9
-391,9283.27
-390.5,9324.52
-390,9393.1
-389.5,9219.36
-389,8920.22
-388.5,8555.38
-388,8739.17
-387.5,8841.7
-387,8694.86
-386.5,8912.59
-386,8436.44
-385.5,8368.42
-385,8562.41
-384.5,8372.77
-384,8787.86
-383.5,8539.45
-383,8534.99
-382.5,8798.86
-382,8521.35
-381.5,8762.11
-381,8878.37
-380.5,8777.56
-380,8627.75
-379.5,8818.75
-379,8789.54
-378.5,8490.92
-378,8759.2
-377.5,8578.96
-377,8850.06
-376.5,8824.8
-376,9066.42
-375.5,9010.31
-375,8845.13
-374.5,9078.18
-374,8899.5
-373.5,8688.64
-373,8741.98
-372.5,8955.63
-372,8864.04
-371.5,8698.66
-371,8879.19
-370.5,8708.76
-370,9073
-369.5,8812.83
-369,8830.28
-368.5,8826.58
-368,9096.07
-367.5,9084.46
-367,8995.17
-366.5,9011
-366,8913.47
-365.5,8940.71
-365,9060.42
-364.5,9093.17
-364,8888.13
-363.5,9271.23
-363,9056.16
-362.5,8891.33
-362,9258.71
-361.5,9246.16
-361,9018.09
-360.5,9247.06
-360,9280.94
-359.5,9177.82
-359,9138.34
-358.5,9181.55
-358,9212.11
-357.5,9250.83
-357,9134.48
-356.5,9180.99
-356,9549.33
-355.5,9401.68
-355,9352.77
-354.5,9437.72
-354,9558.23
-353.5,9349.29
-353,9329.46
-352.5,9504.77
-352,9758.39
-351.5,9259.78
-351,9515.96
-350.5,9425.68
-350,9388.48
-349.5,9680.97
-349,9908.25
-348.5,9772.23
-348,9731.97
-347.5,9670.54
-347,9852.53
-346.5,10073.4
-346,9751.14
-345.5,9812.76
-345,9792.49
-344.5,9782.5
-344,9850.82
-343.5,9964.23
-343,9974.16
-342.5,10117
-342,10286.6
-341.5,10249.9
-341,9855.35
-340.5,9970.89
-340,10051.2
-339.5,9878.74
-339,10060.2
-338.5,10183.5
-338,10220.6
-337.5,9891.09
-337,10218.8
-336.5,9895.64
-336,10316.1
-335.5,10395.5
-335,10516.6
-334.5,10523.6
-334,10322.2
-333.5,10552.9
-333,10616.5
-332.5,10423.8
-332,10442.3
-331.5,10484.3
-331,10467
-330.5,10420.6
-330,10628.8
-329.5,10870.3
-329,10690.8
-328.5,10870.5
-328,10871.4
-327.5,10769.9
-327,10629.9
-326.5,10666.9
-326,10881.8
-325.5,11025.4
-325,10756.7
-324.5,10745.1
-324,10833.9
-323.5,11412.1
-323,11155.8
-322.5,11095.2
-322,10978.4
-321.5,11186.2
-321,11303.3
-320.5,11286.1
-320,11794.8
-319.5,11755.2
-319,11328.2
-318.5,11605
-318,11600
-317.5,11849
-317,11834
-316.5,11516.3
-316,11741.4
-315.5,11766.6
-315,11533.7
-314.5,11619.5
-314,11926.1
-313.5,11719.7
-313,11915.4
-312.5,11717.9
-312,11769.8
-311.5,11862
-311,11800.2
-310.5,11854.4
-310,11830.5
-309.5,11781.8
-309,11785.9
-308.5,12195.4
-308,11821
-307.5,11962.8
-307,11670.6
-306.5,11762.2
-306,11906.7
-305.5,12018.4
-305,12089.5
-304.5,11935.2
-304,12072.2
-303.5,12128.8
-303,11778.5
-302.5,12038.2
-302,12019.7
-301.5,11916.7
-301,12295.8
-300.5,12257.9
-300,12073.2
-299.5,11947.3
-299,12258.1
-298.5,12043.5
-298,12301.8
-297.5,12575
-297,12284.9
-296.5,12223.1
-296,12096.1
-295.5,12433.9
-295,12595.8
-294.5,12510.8
-294,12510.7
-293.5,12537
-293,12971.6
-292.5,13218.5
-292,12979.1
-291.5,13429
-291,13357.9
-290.5,13910.9
-290,13701
-289.5,14033.5
-289,14170.9
-288.5,14427.1
-288,14978.6
-287.5,15520.7
-287,16686.7
-286.5,19530.6
-286,23694.8
-285.5,28359.1
-285,31898.1
-284.5,34166.1
-284,29176.7
-283.5,20429.5
-283,15236.1
-282.5,13292.9
-282,12904.7
-281.5,12351.7
-281,12090
-280.5,12033.1
-280,12157.7
-279.5,11834
-279,12093.1
-278.5,11782.1
-278,11734.4
-277.5,12190.4
-277,11830.2
-276.5,11778.2
-276,11913.6
-275.5,11575.4
-275,11678.7
-274.5,11757.9
-274,12126.6
-273.5,12103.5
-273,11757.6
-272.5,11969.5
-272,12197.3
-271.5,11914.1
-271,11928.7
-270.5,12222.5
-270,12166
-269.5,12411.7
-269,12756.7
-268.5,12034.2
-268,12248.3
-267.5,12375.4
-267,11980.6
-266.5,12416.9
-266,12565
-265.5,12599.7
-265,12175.8
-264.5,12782
-264,12586.2
-263.5,12416.7
-263,12592.7
-262.5,12672.5
-262,12554.1
-261.5,12588.7
-261,12725.9
-260.5,12734.9
-260,12744.5
-259.5,12270.8
-259,13115.8
-258.5,12969.6
-258,13038
-257.5,13291.1
-257,12987.3
-256.5,12974.1
-256,12678.3
-255.5,12792.4
-255,13097.1
-254.5,13045.9
-254,13117.2
-253.5,13149.2
-253,12657.4
-252.5,13044
-252,13204.3
-251.5,12899.3
-251,13138.1
-250.5,13295.3
-250,13132.5
-249.5,13120.8
-249,12892.2
-248.5,13287.1
-248,13478.5
-247.5,13553.8
-247,13481.6
-246.5,13236.4
-246,13370.5
-245.5,13687.6
-245,13585.5
-244.5,13244.8
-244,13393.8
-243.5,13683.2
-243,13432.1
-242.5,13558.4
-242,13563
-241.5,13499.3
-241,13768.6
-240.5,14001
-240,13984.3
-239.5,13930.3
-239,14302.6
-238.5,13782.1
-238,14465.8
-237.5,14353.5
-237,14293
-236.5,14667.8
-236,14313.7
-235.5,14339
-235,14681.7
-234.5,14216.6
-234,14691.4
-233.5,14274.2
-233,14547.8
-232.5,14473.8
-232,14503
-231.5,14675
-231,14421
-230.5,14595.9
-230,14975.9
-229.5,14886
-229,14750.7
-228.5,14648
-228,14396.9
-227.5,14679
-227,15202.2
-226.5,14814.9
-226,15010.9
-225.5,15324
-225,14993.1
-224.5,14844.9
-224,15144.7
-223.5,15252.8
-223,14969.6
-222.5,14800.6
-222,15112.7
-221.5,15245.2
-221,15723.6
-220.5,15710.3
-220,15484.6
-219.5,15802.3
-219,15756.4
-218.5,15772.6
-218,15860.9
-217.5,15659.2
-217,16191.2
-216.5,16213.4
-216,16040.9
-215.5,15838.7
-215,15933.7
-214.5,16068.4
-214,16293.9
-213.5,16273.7
-213,16125.7
-212.5,16035.2
-212,16165.2
-211.5,16213.7
-211,16501
-210.5,16423.5
-210,17050.6
-209.5,16702.5
-209,16838.6
-208.5,16578.1
-208,16898.5
-207.5,17566
-207,16777.5
-206.5,16929.6
-206,17228.5
-205.5,17309.5
-205,17326.8
-204.5,16758
-204,17090.7
-203.5,17214.9
-203,16927.5
-202.5,17631.4
-202,17586.4
-201.5,17654.3
-201,17345.8
-200.5,17964.8
-200,17647.2
-199.5,17707.4
-199,17900.4
-198.5,17922.5
-198,17804.5
-197.5,17890.7
-197,17846.6
-196.5,18420.5
-196,18401.6
-195.5,18284.6
-195,18282.6
-194.5,18691.6
-194,19284.9
-193.5,18661.2
-193,18595.7
-192.5,19168.6
-192,18777.9
-191.5,19134.9
-191,19050
-190.5,18994.3
-190,19266.8
-189.5,19427.7
-189,19421.7
-188.5,19626.7
-188,19857.2
-187.5,19813.6
-187,20048.6
-186.5,19710.6
-186,20220
-185.5,20132
-185,20774.4
-184.5,20640.2
-184,21133.7
-183.5,21046.2
-183,21064.4
-182.5,21335.6
-182,21727.5
-181.5,21475.1
-181,21781
-180.5,21718.8
-180,21679.9
-179.5,21750.2
-179,22173.9
-178.5,21851.5
-178,22169.2
-177.5,22054.8
-177,21359
-176.5,21479.9
-176,21236.1
-175.5,20936.6
-175,20692.4
-174.5,20504.8
-174,20320.8
-173.5,20220.3
-173,20420.4
-172.5,20688.4
-172,20456.9
-171.5,19834.1
-171,20264.9
-170.5,20223.4
-170,20500.9
-169.5,20785.5
-169,20779
-168.5,20420
-168,20387.2
-167.5,20852.9
-167,20188.3
-166.5,20748.6
-166,21090
-165.5,21721.2
-165,23229.3
-164.5,24465.6
-164,25927.4
-163.5,28835.1
-163,33742.8
-162.5,40695.8
-162,50617.2
-161.5,61026.1
-161,67609
-160.5,63244
-160,52041.1
-159.5,41375.8
-159,34208.9
-158.5,29633.9
-158,27183
-157.5,24731.7
-157,23444.3
-156.5,22835.8
-156,22136.9
-155.5,21498.9
-155,21149.8
-154.5,20785.9
-154,20854.6
-153.5,20690
-153,20305.7
-152.5,20383.4
-152,20195.3
-151.5,20604.8
-151,20574.2
-150.5,20103.7
-150,20143.1
-149.5,19877.4
-149,20253.9
-148.5,20344.8
-148,19495.5
-147.5,19705.9
-147,19892.7
-146.5,19955.6
-146,20152.5
-145.5,19857.3
-145,20691.7
-144.5,20303.1
-144,20144.1
-143.5,20703
-143,20280.7
-142.5,20345.1
-142,20667
-141.5,20976.1
-141,21247.3
-140.5,21365.9
-140,21602.7
-139.5,21893.1
-139,22003.4
-138.5,21881.4
-138,21888.4
-137.5,22160.3
-137,22452.5
-136.5,22747.2
-136,22920.4
-135.5,23216.5
-135,23408.1
-134.5,23341.1
-134,23918.4
-133.5,24134
-133,23815.9
-132.5,23942.8
-132,24830.2
-131.5,25431.2
-131,25268.9
-130.5,25626.2
-130,25882.2
-129.5,26276
-129,26836.6
-128.5,26945.1
-128,27297.8
-127.5,27282.4
-127,26967.7
-126.5,27022.6
-126,27204.4
-125.5,27014.2
-125,27282.8
-124.5,26827
-124,26549.7
-123.5,25285.9
-123,24359.2
-122.5,23903
-122,23939.4
-121.5,23620.4
-121,23464.2
-120.5,22279.5
-120,22162.3
-119.5,21701.5
-119,21368.3
-118.5,20949.8
-118,19875.2
-117.5,19341.8
-117,19263.2
-116.5,19184.6
-116,18929.1
-115.5,19340.2
-115,19318.7
-114.5,19187.7
-114,20413.9
-113.5,20766.6
-113,22195.6
-112.5,23849
-112,26574.1
-111.5,31720.6
-111,38580.5
-110.5,47853.7
-110,59049.5
-109.5,68795.5
-109,71505.4
-108.5,69556
-108,67381
-107.5,70962.4
-107,80601.8
-106.5,95465
-106,107663
-105.5,110702
-105,98047.2
-104.5,77777
-104,58652.8
-103.5,44669.2
-103,34787.7
-102.5,28336.3
-102,23842.5
-101.5,20498.4
-101,17856.9
-100.5,15833
-100,14347.9
-99.5,13442.5
-99,12457.8
-98.5,11749.3
-98,10747.9
-97.5,10645.1
-97,10474.7
-96.5,10094.8
-96,9600.18
-95.5,9425.9
-95,8952.83
-94.5,8823.01
-94,8857.4
-93.5,8663.46
-93,8390.17
-92.5,8072.75
-92,8382.22
-91.5,8026.14
-91,7947.91
-90.5,8013.99
-90,7912.53
-89.5,7820.1
-89,7835.13
-88.5,7748.88
-88,7654.99
-87.5,7691.57
-87,7503.86
-86.5,7556.18
-86,8015.8
-85.5,7608.57
-85,7525.61
-84.5,7690.79
-84,7742.85
-83.5,7632.87
-83,7461.01
-82.5,7377.03
-82,7327.66
-81.5,7375.77
-81,7668.95
-80.5,7620.23
-80,7539.41
-79.5,7721.86
-79,7606.66
-78.5,8008.57
-78,7675.31
-77.5,8094.51
-77,7808.72
-76.5,8081.58
-76,9230.88
-75.5,9389.77
-75,8766.41
-74.5,8697.5
-74,9358.69
-73.5,8826.06
-73,8395.93
-72.5,8195.78
-72,8169.56
-71.5,8324.55
-71,8068.52
-70.5,7965.12
-70,8461.87
-69.5,8361.24
-69,8446.5
-68.5,8103.07
-68,8192.07
-67.5,8288.24
-67,8326.01
-66.5,8463.71
-66,8637.88
-65.5,8360.57
-65,8585.5
-64.5,8564.3
-64,8661.78
-63.5,8880.5
-63,8380.78
-62.5,8591.29
-62,8714.55
-61.5,8690.42
-61,8757.7
-60.5,8983.88
-60,8976.72
-59.5,9145.66
-59,8999.35
-58.5,9132.02
-58,9056.55
-57.5,9112.17
-57,9244.74
-56.5,9573.32
-56,9525.18
-55.5,9295.08
-55,9766.7
-54.5,9812.84
-54,9600.76
-53.5,9999.52
-53,9943.3
-52.5,10218.7
-52,9916.68
-51.5,10298.4
-51,10290
-50.5,10163.7
-50,10278.6
-49.5,10628.3
-49,10518.7
-48.5,10293.4
-48,10733
-47.5,10687.8
-47,11085.8
-46.5,10996.2
-46,11456.2
-45.5,11721.1
-45,11948.8
-44.5,12308.7
-44,12186.4
-43.5,12226.2
-43,12408.2
-42.5,12811.7
-42,13056.5
-41.5,13967
-41,14262
-40.5,14783.9
-40,14606.8
-39.5,14288.1
-39,13896.7
-38.5,13288.2
-38,13124.3
-37.5,12529.6
-37,11466.9
-36.5,11415.9
-36,10544.3
-35.5,10291.6
-35,10202.4
-34.5,9574.25
-34,9520.79
-33.5,8907.35
-33,8971.39
-32.5,8461
-32,8146.17
-31.5,8016.42
-31,8137.2
-30.5,7977.56
-30,7850.87
-29.5,7599.46
-29,7606.69
-28.5,7299.26
-28,7142.05
-27.5,7059.28
-27,6913.33
-26.5,7019.18
-26,7452.66
-25.5,7765.69
-25,8153.23
-24.5,8844.06
-24,10235.3
-23.5,11596.8
-23,14454.5
-22.5,21074.1
-22,37863.6
-21.5,70203.5
-21,117734
-20.5,145112
-20,114570
-19.5,54140.1
-19,23289.6
-18.5,14484.7
-18,11666.6
-17.5,10315
-17,9118.96
-16.5,7681.82
-16,6099.5
-15.5,4761.77
-15,3989.77
-14.5,3618.37
-14,3170.66
-13.5,3031.39
-13,2792.38
-12.5,2704.76
-12,2587.37
-11.5,2819.94
-11,3216.86
-10.5,3985.58
-10,5127.99
-9.5,5439.64
-9,5239.79
-8.5,4743.3
-8,4393.34
-7.5,4133.26
-7,4138.33
-6.5,4206.01
-6,4434.47
-5.5,4381.85
-5,4331.78
-4.5,3941.56
-4,3319.57
-3.5,2704.6
-3,2221.57
-2.5,1870.9
-2,1639.88
-1.5,1465.54
-1,1383.18
-0.5,1363.67
0,1347.77
0.5,1296.34
1,1277.29
1.5,1275.52
2,1233.5
2.5,1244.26
3,1242.06
3.5,1246.49
4,1236.94
4.5,1238.21
5,1229.27